{
    "resourceType": "CarePlan",
    "id": "Fhir_id",
    "contained": [
      {
        "resourceType": "Condition",
        "id": "p1",
        "clinicalStatus": {
          "coding": [
            {
              "system": "http://terminology.hl7.org/CodeSystem/condition-clinical",
              "code": "active"
            }
          ]
        },
        "verificationStatus": {
          "coding": [
            {
              "system": "http://terminology.hl7.org/CodeSystem/condition-ver-status",
              "code": "confirmed"
            }
          ]
        },
        "code": {
          "text": "pregnancy"
        },
        "subject": {
          "reference": "Patient/1",
          "display": "Eve Everywoman"
        }
      },
      {
        "resourceType": "Practitioner",
        "id": "pr1",
        "name": [
          {
            "family": "Midwife",
            "given": [
              "Mavis"
            ]
          }
        ]
      },
      {
        "resourceType": "Practitioner",
        "id": "pr2",
        "name": [
          {
            "family": "Obstetrician",
            "given": [
              "Oscar"
            ]
          }
        ]
      },
      {
        "resourceType": "CareTeam",
        "id": "careteam",
        "participant": [
          {
            "role": [
              {
                "coding": [
                  {
                    "system": "http://example.org/mysys",
                    "code": "lmc"
                  }
                ],
                "text": "Midwife"
              }
            ],
            "member": {
              "reference": "#pr1",
              "display": "Mavis Midwife"
            }
          },
          {
            "role": [
              {
                "coding": [
                  {
                    "system": "http://example.org/mysys",
                    "code": "obs"
                  }
                ],
                "text": "Obstretitian"
              }
            ],
            "member": {
              "reference": "#pr2",
              "display": "Oscar Obstetrician"
            }
          }
        ]
      },
      {
        "resourceType": "Goal",
        "id": "goal",
        "language": "english",
        "lifecycleStatus": "active",
        "description": {
          "text": "Maintain patient's health throughout pregnancy and ensure a healthy child"
        },
        "subject": {
          "reference": "Patient/1",
          "display": "Eve Everywoman"
        }
      }
    ],
    "extension": [
      {
        "url": "http://example.org/fhir/StructureDefinition/careplan#lmp",
        "valueDateTime": "2013-01-01"
      }
    ],
    "status": "draft | active | on-hold | revoked | completed | entered-in-error | unknown",
    "intent": "proposal|plan|oder|option",
    "category": [
      {
        "text": "CarePlan_category"
      }
    ],
    "title": "CarePlan_title",
    "language": "en",
    "author": {
      "display": "CarePlan_Provider"
    },
    "description": "CarePlan_description",
    "subject": {
      "reference": "Patient/1",
      "display": "Details_about_patient",
      "id": "Participant_Id"
    },
    "period": {
      "start": "2013-01-01",
      "end": "2013-10-01"
    },
    "careTeam": [
      {
        "reference": "#careteam"
      }
    ],
    "addresses": [
      {
        "reference": "#p1",
        "display": "pregnancy"
      }
    ],
    "goal": [
      {
        "reference": "#goal"
      }
    ],
    "activity": [
      {
        "reference": {
          "display": "CarePlan_description",
          "type": "CarePlan_Name",
          "id": "CarePlan_code"
        }
      },
      {
        "extension": [
          {
            "url": "http://example.org/fhir/StructureDefinition/careplan#andetails",
            "valueUri": "http://orionhealth.com/fhir/careplan/1andetails"
          }
        ],
        "detail": {
          "kind": "Appointment",
          "code": {
            "coding": [
              {
                "system": "http://example.org/mySystem",
                "code": "1an"
              }
            ],
            "text": "First Antenatal encounter"
          },
          "status": "scheduled",
          "doNotPerform": false,
          "scheduledTiming": {
            "repeat": {
              "boundsPeriod": {
                "start": "2013-02-14",
                "end": "2013-02-28"
              }
            }
          },
          "performer": [
            {
              "reference": "#pr1",
              "display": "Mavis Midwife"
            }
          ],
          "description": "The first antenatal encounter. This is where a detailed physical examination is performed.             and the pregnanacy discussed with the mother-to-be."
        }
      },
      {
        "detail": {
          "kind": "Appointment",
          "code": {
            "coding": [
              {
                "system": "http://example.org/mySystem",
                "code": "an"
              }
            ],
            "text": "Follow-up Antenatal encounter"
          },
          "status": "not-started",
          "doNotPerform": false,
          "scheduledTiming": {
            "repeat": {
              "boundsPeriod": {
                "start": "2013-03-01",
                "end": "2013-03-14"
              }
            }
          },
          "performer": [
            {
              "reference": "#pr1",
              "display": "Mavis Midwife"
            }
          ],
          "description": "The second antenatal encounter. Discuss any issues that arose from the first antenatal encounter"
        }
      },
      {
        "detail": {
          "kind": "Appointment",
          "code": {
            "coding": [
              {
                "system": "http://example.org/mySystem",
                "code": "del"
              }
            ],
            "text": "Delivery"
          },
          "status": "not-started",
          "doNotPerform": false,
          "scheduledTiming": {
            "repeat": {
              "boundsPeriod": {
                "start": "2013-09-01",
                "end": "2013-09-14"
              }
            }
          },
          "performer": [
            {
              "reference": "#pr1",
              "display": "Mavis Midwife"
            }
          ],
          "description": "The delivery."
        }
      }
    ]
  }